 SWICS EFFICIENCIES FOR KR

 incident ion: Z=36, M= 83.920 amu
 carbon foil thickness= 2.5 microg/squarecm
 detector threshold= 40.0 keV, electronic FWHM= 12.0 keV
 electrons needed to trigger MCPs: TH1=1.10, TH2=1.10
 constants for sec. electrons: CONST1=0.800, CONST2=0.282

     ETOT    EPERM    EFOIL    ETOTF    EMEAS    FWHMT    PROB1   PROBSE    PROB2   PROBST    PROBT    PROB3    P3/P1    P2*P3
    [keV]  [keV/u]    [keV]    [keV]    [keV]    [keV]

 8392.000  100.000   47.354 8344.646 6466.932  334.345  1.00000  0.99998  0.99996  0.99993  1.00000  0.99993  0.99993  0.99989
 7552.800   90.000   43.335 7509.465 5734.509  326.220  1.00000  0.99997  0.99990  0.99991  1.00000  0.99991  0.99991  0.99981
 6797.520   81.000   39.527 6757.993 5084.020  318.295  1.00000  0.99996  0.99978  0.99988  1.00000  0.99988  0.99988  0.99965
 6117.768   72.900   35.956 6081.813 4485.354  306.752  0.99999  0.99994  0.99949  0.99983  1.00000  0.99983  0.99984  0.99932
 5505.991   65.610   32.639 5473.353 3954.387  295.387  0.99996  0.99992  0.99890  0.99977  1.00000  0.99977  0.99981  0.99867
 4955.392   59.049   29.583 4925.810 3483.146  284.446  0.99989  0.99989  0.99776  0.99969  1.00000  0.99969  0.99979  0.99744
 4459.853   53.144   26.788 4433.065 3060.966  273.912  0.99974  0.99985  0.99575  0.99957  1.00000  0.99957  0.99984  0.99532
 4013.867   47.830   24.247 3989.621 2688.403  263.769  0.99942  0.99980  0.99248  0.99942  1.00000  0.99942  1.00000  0.99190
 3612.480   43.047   21.949 3590.531 2359.744  254.004  0.99880  0.99973  0.98753  0.99921  1.00000  0.99921  1.00041  0.98675
 3251.232   38.742   20.128 3231.104 2068.734  242.868  0.99792  0.99963  0.98049  0.99893  1.00000  0.99893  1.00101  0.97945
 2926.109   34.868   19.349 2906.760 1810.052  229.303  0.99734  0.99950  0.97104  0.99855  1.00000  0.99855  1.00122  0.96964
 2633.498   31.381   18.599 2614.899 1582.400  216.495  0.99663  0.99932  0.95959  0.99804  1.00000  0.99804  1.00141  0.95771
 2370.148   28.243   17.878 2352.270 1382.161  204.404  0.99577  0.99908  0.95190  0.99735  1.00000  0.99735  1.00158  0.94937
 2133.134   25.419   17.186 2115.948 1206.130  192.989  0.99474  0.99875  0.94323  0.99642  1.00000  0.99642  1.00169  0.93985
 1919.820   22.877   16.520 1903.300 1054.008  182.213  0.99351  0.99830  0.93353  0.99516  1.00000  0.99516  1.00167  0.92901
 1727.838   20.589   15.880 1711.958  920.435  172.040  0.99205  0.99771  0.92275  0.99349  1.00000  0.99349  1.00145  0.91675
 1555.054   18.530   15.265 1539.789  803.024  157.852  0.99035  0.99690  0.91086  0.99125  1.00000  0.99125  1.00091  0.90289
 1399.549   16.677   14.674 1384.875  699.880  143.893  0.98838  0.99583  0.89779  0.98828  1.00000  0.98828  0.99990  0.88726
 1259.594   15.009   14.105 1245.489  609.613  131.021  0.98610  0.99439  0.88349  0.98435  1.00000  0.98435  0.99823  0.86967
 1133.634   13.509   13.559 1120.076  532.725  118.027  0.98349  0.99247  0.86792  0.97919  1.00000  0.97919  0.99563  0.84986
 1020.271   12.158   13.033 1007.238  465.109  106.339  0.98052  0.98994  0.85099  0.97247  1.00000  0.97247  0.99179  0.82756
  918.244   10.942   12.529  905.715  405.679   95.831  0.97716  0.98659  0.83262  0.96378  1.00000  0.96378  0.98630  0.80247
  826.419    9.848   12.043  814.376  353.503   86.495  0.97340  0.98221  0.81273  0.95269  1.00000  0.95269  0.97872  0.77428
  743.777    8.863   11.577  732.201  307.758   78.344  0.96920  0.97653  0.79121  0.93869  1.00000  0.93869  0.96852  0.74270
  669.400    7.977   11.128  658.272  267.685   70.990  0.96454  0.96921  0.76793  0.92128  1.00000  0.92128  0.95515  0.70748
  602.460    7.179   10.697  591.763  232.792   64.357  0.95940  0.95989  0.74278  0.89998  1.00000  0.89998  0.93807  0.66849
  542.214    6.461   10.283  531.931  202.197   58.379  0.95376  0.94818  0.71565  0.87443  1.00000  0.87443  0.91682  0.62578
  487.992    5.815    9.884  478.108  175.793   52.996  0.94761  0.93364  0.68645  0.84438  1.00000  0.84438  0.89106  0.57962
  439.193    5.233    9.501  429.692  153.030   48.154  0.94093  0.91588  0.65514  0.80985  1.00000  0.80985  0.86069  0.53056
  395.274    4.710    9.133  386.141  133.057   43.803  0.93371  0.89454  0.62176  0.77112  1.00000  0.77112  0.82587  0.47945
  355.746    4.239    8.779  346.967  115.545   39.898  0.92594  0.86937  0.58644  0.72876  1.00000  0.72876  0.78705  0.42737
  320.172    3.815    8.439  311.732  100.542   36.400  0.91762  0.84023  0.54940  0.68361  0.99996  0.68358  0.74495  0.37556
  288.155    3.434    8.112  280.042   87.517   33.272  0.90875  0.80717  0.51099  0.63669  0.99961  0.63644  0.70035  0.32522
  259.339    3.090    7.798  251.541   76.088   30.482  0.89932  0.77039  0.47165  0.58908  0.99735  0.58751  0.65328  0.27710
  233.405    2.781    7.496  225.909   66.067   27.999  0.88935  0.73029  0.43188  0.54180  0.98582  0.53412  0.60057  0.23068
  210.065    2.503    7.206  202.859   57.312   25.796  0.87884  0.68740  0.39225  0.49574  0.94298  0.46747  0.53192  0.18337
  189.058    2.253    6.926  182.132   49.694   23.849  0.86781  0.64237  0.35331  0.45153  0.83077  0.37511  0.43225  0.13253
  170.152    2.028    6.658  163.494   43.025   22.134  0.85626  0.59590  0.31557  0.40956  0.62621  0.25647  0.29953  0.08093
  153.137    1.825    6.400  146.737   37.191   20.629  0.84421  0.54871  0.27949  0.37003  0.37424  0.13848  0.16404  0.03870
  137.823    1.642    6.152  131.671   32.092   19.316  0.83169  0.50148  0.24544  0.33296  0.16752  0.05578  0.06706  0.01369
  124.041    1.478    5.914  118.127   27.576   18.176  0.81870  0.46448  0.21822  0.30428  0.05375  0.01635  0.01998  0.00357
  111.637    1.330    5.685  105.952   23.602   17.191  0.80528  0.43347  0.19530  0.28096  0.01234  0.00347  0.00431  0.00068
  100.473    1.197    5.465   95.009   20.146   16.344  0.79145  0.40144  0.17330  0.25823  0.00212  0.00055  0.00069  0.00009
   90.426    1.078    5.253   85.173   17.146   15.621  0.77724  0.36864  0.15233  0.23585  0.00029  0.00007  0.00009  0.00001
   81.383    0.970    5.049   76.334   14.488   16.586  0.76266  0.33534  0.13252  0.21367  0.00015  0.00003  0.00004  0.00000
   73.245    0.873    4.854   68.391   12.183   15.787  0.74776  0.30195  0.11402  0.19175  0.00002  0.00000  0.00000  0.00000
   65.921    0.786    4.666   61.255   10.195   15.114  0.73255  0.26901  0.09698  0.17034  0.00000  0.00000  0.00000  0.00000
   59.328    0.707    4.485   54.843    8.656   14.549  0.71707  0.23715  0.08155  0.14978  0.00000  0.00000  0.00000  0.00000
   53.396    0.636    4.311   49.084    7.416   14.079  0.70134  0.20695  0.06783  0.13039  0.00000  0.00000  0.00000  0.00000
   48.056    0.573    4.144   43.912    6.337   13.689  0.68540  0.17890  0.05584  0.11248  0.00000  0.00000  0.00000  0.00000
   43.250    0.515    3.984   39.267    5.400   13.368  0.66927  0.15191  0.04511  0.09533  0.00000  0.00000  0.00000  0.00000
