 SWICS EFFICIENCIES FOR MG

 incident ion: Z=12, M= 23.985 amu
 carbon foil thickness= 2.5 microg/squarecm
 detector threshold= 40.0 keV, electronic FWHM= 12.0 keV
 electrons needed to trigger MCPs: TH1=1.10, TH2=1.10
 constants for sec. electrons: CONST1=0.667, CONST2=0.294

     ETOT    EPERM    EFOIL    ETOTF    EMEAS    FWHMT    PROB1   PROBSE    PROB2   PROBST    PROBT    PROB3    P3/P1    P2*P3
    [keV]  [keV/u]    [keV]    [keV]    [keV]    [keV]

 2398.500  100.000   25.012 2373.488 2070.709   88.872  0.99830  0.99984  0.99723  0.99954  1.00000  0.99954  1.00124  0.99677
 2158.650   90.000   23.416 2135.234 1847.449   86.931  0.99741  0.99979  0.99549  0.99938  1.00000  0.99938  1.00198  0.99487
 1942.785   81.000   21.850 1920.935 1648.182   85.034  0.99609  0.99971  0.99289  0.99917  1.00000  0.99917  1.00309  0.99207
 1748.507   72.900   20.334 1728.172 1468.194   82.561  0.99418  0.99962  0.98916  0.99889  1.00000  0.99889  1.00474  0.98806
 1573.656   65.610   18.884 1554.772 1307.730   80.157  0.99150  0.99949  0.98401  0.99852  1.00000  0.99852  1.00708  0.98256
 1416.290   59.049   17.511 1398.779 1164.048   77.826  0.98783  0.99931  0.97719  0.99802  1.00000  0.99802  1.01032  0.97526
 1274.661   53.144   16.221 1258.440 1034.454   75.565  0.98297  0.99908  0.96846  0.99736  1.00000  0.99736  1.01464  0.96590
 1147.195   47.830   15.019 1132.176  919.143   73.374  0.97672  0.99877  0.95766  0.99648  1.00000  0.99648  1.02023  0.95429
 1032.476   43.047   13.906 1018.570  816.548   71.250  0.96892  0.99836  0.94472  0.99531  1.00000  0.99531  1.02724  0.94029
  929.228   38.742   12.880  916.348  724.594   68.756  0.95947  0.99781  0.92966  0.99377  1.00000  0.99377  1.03575  0.92387
  836.305   34.868   11.939  824.366  642.060   65.813  0.94833  0.99708  0.91259  0.99174  1.00000  0.99174  1.04578  0.90505
  752.675   31.381   11.080  741.595  568.775   63.003  0.93551  0.99611  0.89367  0.98907  1.00000  0.98907  1.05725  0.88389
  677.407   28.243   10.297  667.110  503.713   60.321  0.92113  0.99484  0.87310  0.98558  1.00000  0.98558  1.06996  0.86050
  609.666   25.419    9.586  600.080  445.960   57.761  0.90534  0.99316  0.85110  0.98104  1.00000  0.98104  1.08361  0.83497
  548.700   22.877    8.917  539.783  392.149   55.319  0.88754  0.99097  0.82310  0.97518  1.00000  0.97518  1.09874  0.80267
  493.830   20.589    8.312  485.518  344.609   52.989  0.86877  0.98810  0.79356  0.96768  1.00000  0.96768  1.11385  0.76791
  444.447   18.530    7.769  436.678  302.640   50.453  0.84928  0.98438  0.76283  0.95815  1.00000  0.95815  1.12818  0.73091
  400.002   16.677    7.280  392.722  265.602   48.011  0.82935  0.97959  0.73117  0.94618  1.00000  0.94618  1.14088  0.69182
  360.002   15.009    6.840  353.162  232.818   45.623  0.80918  0.97347  0.69876  0.93134  1.00000  0.93134  1.15096  0.65078
  324.002   13.509    6.443  317.558  203.439   43.021  0.78898  0.96571  0.66578  0.91318  1.00000  0.91318  1.15742  0.60797
  291.602   12.158    6.174  285.427  177.525   40.582  0.77520  0.95599  0.63223  0.89132  1.00000  0.89132  1.14979  0.56352
  262.441   10.942    5.935  256.506  154.740   38.302  0.76095  0.94393  0.59827  0.86547  1.00000  0.86547  1.13736  0.51779
  236.197    9.848    5.705  230.492  134.694   35.984  0.74642  0.92919  0.56398  0.83550  1.00000  0.83550  1.11935  0.47121
  212.577    8.863    5.484  207.093  117.048   33.541  0.73163  0.91140  0.52943  0.80149  1.00000  0.80149  1.09549  0.42433
  191.320    7.977    5.272  186.048  101.563   31.306  0.71661  0.89030  0.49469  0.76373  1.00000  0.76373  1.06575  0.37781
  172.188    7.179    5.067  167.120   87.966   28.979  0.70140  0.86565  0.45989  0.72278  0.99995  0.72275  1.03043  0.33239
  154.969    6.461    4.871  150.098   76.070   26.771  0.68603  0.83739  0.42520  0.67940  0.99925  0.67889  0.98960  0.28866
  139.472    5.815    4.682  134.790   65.664   24.804  0.67052  0.80555  0.39081  0.63449  0.99258  0.62979  0.93926  0.24613
  125.525    5.233    4.501  121.024   56.572   23.057  0.65490  0.77033  0.35698  0.58900  0.95473  0.56234  0.85866  0.20074
  112.972    4.710    4.327  108.646   48.642   21.390  0.63920  0.73208  0.32397  0.54382  0.82929  0.45098  0.70554  0.14611
  101.675    4.239    4.159   97.516   41.731   19.928  0.62346  0.69126  0.29205  0.49971  0.58103  0.29035  0.46570  0.08480
   91.508    3.815    3.998   87.510   35.849   18.662  0.60769  0.64843  0.26149  0.45726  0.30021  0.13727  0.22589  0.03590
   82.357    3.434    3.843   78.514   30.747   17.572  0.59192  0.60420  0.23252  0.41682  0.10749  0.04480  0.07569  0.01042
   74.121    3.090    3.694   70.427   26.307   16.639  0.57619  0.55920  0.20531  0.37858  0.02632  0.00996  0.01729  0.00205
   66.709    2.781    3.551   63.158   22.447   15.845  0.56050  0.51403  0.18002  0.34260  0.00455  0.00156  0.00278  0.00028
   60.038    2.503    3.414   56.625   19.199   15.174  0.54488  0.46927  0.15672  0.30881  0.00062  0.00019  0.00035  0.00003
   54.034    2.253    3.281   50.753   16.460   14.609  0.52936  0.42544  0.12936  0.27715  0.00007  0.00002  0.00004  0.00000
   48.631    2.028    3.154   45.477   14.077   14.137  0.51395  0.38302  0.11088  0.24754  0.00001  0.00000  0.00000  0.00000
   43.768    1.825    3.032   40.736   12.005   13.745  0.49868  0.34240  0.09430  0.21991  0.00000  0.00000  0.00000  0.00000
   39.391    1.642    2.914   36.477   10.207   13.420  0.48355  0.30393  0.07958  0.19425  0.00000  0.00000  0.00000  0.00000
   35.452    1.478    2.802   32.650    8.734   13.152  0.46859  0.27845  0.06927  0.17723  0.00000  0.00000  0.00000  0.00000
   31.907    1.330    2.693   29.214    7.464   12.933  0.45380  0.25411  0.06002  0.16121  0.00000  0.00000  0.00000  0.00000
   28.716    1.197    2.589   26.127    6.360   12.753  0.43921  0.22958  0.05145  0.14524  0.00000  0.00000  0.00000  0.00000
   25.844    1.078    2.488   23.356    5.412   12.501  0.42481  0.20532  0.04362  0.12958  0.00000  0.00000  0.00000  0.00000
   23.260    0.970    2.392   20.868    4.616   12.402  0.41063  0.18182  0.03660  0.11450  0.00000  0.00000  0.00000  0.00000
   20.934    0.873    2.299   18.635    3.926   12.321  0.39668  0.15951  0.03041  0.10025  0.00000  0.00000  0.00000  0.00000
   18.841    0.786    2.210   16.630    3.327   12.257  0.38295  0.13875  0.02502  0.08705  0.00000  0.00000  0.00000  0.00000
   16.957    0.707    2.125   14.832    2.804   12.204  0.36945  0.11976  0.02042  0.07501  0.00000  0.00000  0.00000  0.00000
   15.261    0.636    2.042   13.219    2.353   12.163  0.35620  0.10266  0.01654  0.06422  0.00000  0.00000  0.00000  0.00000
   13.735    0.573    1.963   11.772    1.964   12.129  0.34318  0.08726  0.01327  0.05452  0.00000  0.00000  0.00000  0.00000
   12.361    0.515    1.887   10.474    1.630   12.102  0.33042  0.07285  0.01045  0.04547  0.00000  0.00000  0.00000  0.00000
