 SWICS EFFICIENCIES FOR O_

 incident ion: Z= 8, M= 15.995 amu
 carbon foil thickness= 2.5 microg/squarecm
 detector threshold= 40.0 keV, electronic FWHM= 12.0 keV
 electrons needed to trigger MCPs: TH1=1.10, TH2=1.10
 constants for sec. electrons: CONST1=0.525, CONST2=0.454

     ETOT    EPERM    EFOIL    ETOTF    EMEAS    FWHMT    PROB1   PROBSE    PROB2   PROBST    PROBT    PROB3    P3/P1    P2*P3
    [keV]  [keV/u]    [keV]    [keV]    [keV]    [keV]

 1599.500  100.000   20.321 1579.179 1408.490   50.847  0.98223  0.99969  0.99905  0.99912  1.00000  0.99912  1.01719  0.99817
 1439.550   90.000   19.406 1420.144 1259.152   50.384  0.97851  0.99959  0.99854  0.99882  1.00000  0.99882  1.02076  0.99736
 1295.595   81.000   18.479 1277.115 1125.576   49.916  0.97395  0.99945  0.99777  0.99842  1.00000  0.99842  1.02512  0.99619
 1166.036   72.900   17.556 1148.479 1004.934   49.025  0.96848  0.99927  0.99666  0.99789  1.00000  0.99789  1.03037  0.99455
 1049.432   65.610   16.649 1032.783  897.161   48.151  0.96200  0.99902  0.99508  0.99719  1.00000  0.99719  1.03657  0.99227
  944.489   59.049   15.769  928.720  800.502   47.295  0.95446  0.99869  0.99291  0.99625  1.00000  0.99625  1.04378  0.98918
  850.040   53.144   14.923  835.117  713.423   46.456  0.94584  0.99825  0.99000  0.99501  1.00000  0.99501  1.05198  0.98507
  765.036   47.830   14.117  750.919  635.740   45.633  0.93614  0.99767  0.98623  0.99338  1.00000  0.99338  1.06114  0.97970
  688.532   43.047   13.354  675.178  566.439   44.827  0.92539  0.99689  0.98145  0.99122  1.00000  0.99122  1.07114  0.97284
  619.679   38.742   12.636  607.043  503.525   43.713  0.91365  0.99587  0.97554  0.98840  1.00000  0.98840  1.08181  0.96422
  557.711   34.868   11.964  545.747  446.498   42.312  0.90103  0.99452  0.96837  0.98472  1.00000  0.98472  1.09288  0.95357
  501.940   31.381   11.338  490.602  395.819   40.962  0.88763  0.99275  0.95985  0.97994  1.00000  0.97994  1.10399  0.94059
  451.746   28.243   10.755  440.991  350.788   39.662  0.87358  0.99044  0.94987  0.97378  1.00000  0.97378  1.11470  0.92497
  406.571   25.419   10.215  396.356  310.678   38.410  0.85894  0.98742  0.93815  0.96591  1.00000  0.96591  1.12453  0.90617
  365.914   22.877    9.689  356.226  274.059   37.205  0.84303  0.98351  0.92221  0.95594  1.00000  0.95594  1.13393  0.88159
  329.323   20.589    9.202  320.121  241.637   36.045  0.82694  0.97849  0.90393  0.94346  1.00000  0.94346  1.14091  0.85282
  296.391   18.530    8.756  287.634  212.936   34.594  0.81077  0.97208  0.88321  0.92802  1.00000  0.92802  1.14462  0.81964
  266.751   16.677    8.347  258.404  187.537   33.212  0.79462  0.96398  0.86000  0.90921  1.00000  0.90921  1.14420  0.78191
  240.076   15.009    7.971  232.106  164.801   31.858  0.77857  0.95385  0.83422  0.88664  1.00000  0.88664  1.13881  0.73966
  216.069   13.509    7.624  208.445  144.181   30.490  0.76320  0.94133  0.80585  0.86007  1.00000  0.86007  1.12693  0.69309
  194.462   12.158    7.330  187.132  125.998   29.197  0.74858  0.92607  0.77486  0.82938  1.00000  0.82938  1.10795  0.64266
  175.016   10.942    7.046  167.970  110.003   27.978  0.73368  0.90772  0.74132  0.79471  1.00000  0.79471  1.08318  0.58913
  157.514    9.848    6.773  150.741   95.781   26.764  0.71855  0.88602  0.70534  0.75639  1.00000  0.75639  1.05267  0.53351
  141.763    8.863    6.510  135.252   83.181   25.574  0.70320  0.86077  0.66712  0.71503  0.99997  0.71500  1.01679  0.47699
  127.586    7.977    6.258  121.328   71.989   24.463  0.68766  0.83191  0.62697  0.67140  0.99896  0.67070  0.97533  0.42051
  114.828    7.179    6.016  108.812   62.059   23.241  0.67197  0.79952  0.58528  0.62641  0.98729  0.61845  0.92035  0.36197
  103.345    6.461    5.783   97.562   53.393   22.098  0.65616  0.76381  0.54253  0.58101  0.92324  0.53641  0.81750  0.29102
   93.010    5.815    5.559   87.452   45.818   21.052  0.64025  0.72516  0.49925  0.53606  0.74242  0.39798  0.62161  0.19869
   83.709    5.233    5.343   78.366   39.221   20.010  0.62427  0.68404  0.45602  0.49230  0.46346  0.22816  0.36549  0.10405
   75.338    4.710    5.136   70.202   33.484   18.732  0.60824  0.64102  0.41340  0.45026  0.20635  0.09291  0.15275  0.03841
   67.805    4.239    4.937   62.867   28.548   17.630  0.59220  0.59671  0.37192  0.41027  0.06306  0.02587  0.04369  0.00962
   61.024    3.815    4.746   56.278   24.483   16.686  0.57617  0.55173  0.33204  0.37249  0.01426  0.00531  0.00922  0.00176
   54.922    3.434    4.562   50.360   20.944   15.881  0.56017  0.50669  0.29417  0.33694  0.00236  0.00080  0.00142  0.00023
   49.430    3.090    4.385   45.044   17.868   15.201  0.54422  0.46215  0.25861  0.30358  0.00030  0.00009  0.00017  0.00002
   44.487    2.781    4.216   40.271   15.197   14.628  0.52835  0.41861  0.22558  0.27232  0.00003  0.00001  0.00002  0.00000
   40.038    2.503    4.052   35.986   12.999   14.149  0.51257  0.37653  0.19523  0.24309  0.00000  0.00000  0.00000  0.00000
   36.034    2.253    3.895   32.139   11.094   13.750  0.49690  0.33632  0.16100  0.21583  0.00000  0.00000  0.00000  0.00000
   32.431    2.028    3.744   28.686    9.440   13.420  0.48137  0.29829  0.13674  0.19052  0.00000  0.00000  0.00000  0.00000
   29.188    1.825    3.599   25.588    8.006   13.149  0.46597  0.26272  0.11519  0.16716  0.00000  0.00000  0.00000  0.00000
   26.269    1.642    3.460   22.809    6.772   12.926  0.45073  0.23472  0.09832  0.14886  0.00000  0.00000  0.00000  0.00000
   23.642    1.478    3.326   20.316    5.712   12.744  0.43567  0.21341  0.08530  0.13498  0.00000  0.00000  0.00000  0.00000
   21.278    1.330    3.197   18.081    4.797   12.597  0.42078  0.19202  0.07314  0.12115  0.00000  0.00000  0.00000  0.00000
   19.150    1.197    3.073   16.077    4.008   12.477  0.40608  0.17099  0.06200  0.10765  0.00000  0.00000  0.00000  0.00000
   17.235    1.078    2.954   14.281    3.374   12.190  0.39158  0.15078  0.05198  0.09475  0.00000  0.00000  0.00000  0.00000
   15.512    0.970    2.840   12.672    2.829   12.150  0.37729  0.13177  0.04313  0.08265  0.00000  0.00000  0.00000  0.00000
   13.960    0.873    2.730   11.231    2.360   12.118  0.36320  0.11422  0.03546  0.07153  0.00000  0.00000  0.00000  0.00000
   12.564    0.786    2.615    9.949    1.962   12.092  0.34943  0.09827  0.02890  0.06146  0.00000  0.00000  0.00000  0.00000
   11.308    0.707    2.501    8.807    1.622   12.072  0.33593  0.08402  0.02339  0.05249  0.00000  0.00000  0.00000  0.00000
   10.177    0.636    2.393    7.784    1.330   12.057  0.32265  0.07117  0.01872  0.04441  0.00000  0.00000  0.00000  0.00000
    9.159    0.573    2.291    6.869    1.082   12.044  0.30960  0.05926  0.01472  0.03695  0.00000  0.00000  0.00000  0.00000
    8.243    0.515    2.193    6.051    0.908   12.034  0.29676  0.04924  0.01152  0.03068  0.00000  0.00000  0.00000  0.00000
