 SWICS EFFICIENCIES FOR FE

 incident ion: Z=26, M= 55.940 amu
 carbon foil thickness= 2.5 microg/squarecm
 detector threshold= 40.0 keV, electronic FWHM= 12.0 keV
 electrons needed to trigger MCPs: TH1=1.10, TH2=1.10
 constants for sec. electrons: CONST1=0.830, CONST2=0.279

     ETOT    EPERM    EFOIL    ETOTF    EMEAS    FWHMT    PROB1   PROBSE    PROB2   PROBST    PROBT    PROB3    P3/P1    P2*P3
    [keV]  [keV/u]    [keV]    [keV]    [keV]    [keV]

 5594.000  100.000   42.201 5551.799 4538.499  213.792  1.00000  0.99997  0.99989  0.99990  1.00000  0.99990  0.99990  0.99979
 5034.600   90.000   39.077 4995.523 4033.982  207.078  1.00000  0.99995  0.99977  0.99987  1.00000  0.99987  0.99987  0.99964
 4531.140   81.000   36.078 4495.062 3585.071  200.578  0.99999  0.99994  0.99953  0.99982  1.00000  0.99982  0.99983  0.99935
 4078.026   72.900   33.229 4044.797 3171.556  193.024  0.99998  0.99991  0.99905  0.99975  1.00000  0.99975  0.99978  0.99881
 3670.223   65.610   30.551 3639.672 2804.389  185.704  0.99994  0.99988  0.99819  0.99966  1.00000  0.99966  0.99972  0.99785
 3303.201   59.049   28.054 3275.147 2476.263  178.665  0.99987  0.99984  0.99672  0.99954  1.00000  0.99954  0.99967  0.99627
 2972.881   53.144   25.743 2947.138 2177.667  171.895  0.99973  0.99979  0.99439  0.99938  1.00000  0.99938  0.99965  0.99378
 2675.593   47.830   23.618 2651.975 1914.041  165.384  0.99946  0.99971  0.99091  0.99916  1.00000  0.99916  0.99970  0.99007
 2408.033   43.047   21.674 2386.359 1681.364  159.122  0.99898  0.99960  0.98598  0.99886  1.00000  0.99886  0.99988  0.98486
 2167.230   38.742   19.904 2147.326 1473.757  152.140  0.99818  0.99946  0.97936  0.99845  1.00000  0.99845  1.00027  0.97784
 1950.507   34.868   18.299 1932.208 1287.586  144.047  0.99693  0.99927  0.97087  0.99790  1.00000  0.99790  1.00097  0.96883
 1755.456   31.381   16.847 1738.609 1123.898  136.389  0.99508  0.99901  0.96040  0.99716  1.00000  0.99716  1.00209  0.95767
 1579.911   28.243   15.539 1564.372  980.057  129.143  0.99248  0.99866  0.94796  0.99616  1.00000  0.99616  1.00371  0.94432
 1421.920   25.419   14.362 1407.558  853.728  122.286  0.98899  0.99818  0.93362  0.99482  1.00000  0.99482  1.00589  0.92879
 1279.728   22.877   13.268 1266.459  744.048  115.799  0.98431  0.99754  0.91440  0.99303  1.00000  0.99303  1.00886  0.90803
 1151.755   20.589   12.449 1139.306  647.698  109.655  0.97985  0.99669  0.89259  0.99064  1.00000  0.99064  1.01102  0.88424
 1036.579   18.530   11.966 1024.613  562.972  102.820  0.97642  0.99553  0.86863  0.98747  1.00000  0.98747  1.01132  0.85774
  932.921   16.677   11.503  921.419  488.707   96.225  0.97257  0.99400  0.84287  0.98329  1.00000  0.98329  1.01102  0.82878
  839.629   15.009   11.057  828.572  423.942   89.937  0.96828  0.99195  0.81562  0.97780  1.00000  0.97780  1.00983  0.79752
  755.666   13.509   10.629  745.037  369.128   83.206  0.96354  0.98925  0.78717  0.97067  1.00000  0.97067  1.00740  0.76408
  680.100   12.158   10.217  669.883  321.031   76.996  0.95831  0.98569  0.75773  0.96148  1.00000  0.96148  1.00331  0.72854
  612.090   10.942    9.821  602.268  278.857   71.267  0.95258  0.98104  0.73927  0.94976  1.00000  0.94976  0.99705  0.70213
  550.881    9.848    9.441  541.440  242.300   65.617  0.94633  0.97501  0.71570  0.93503  1.00000  0.93503  0.98805  0.66920
  495.793    8.863    9.075  486.717  211.072   59.690  0.93956  0.96727  0.69077  0.91677  1.00000  0.91677  0.97574  0.63328
  446.213    7.977    8.723  437.490  183.776   54.335  0.93225  0.95744  0.66439  0.89453  1.00000  0.89453  0.95954  0.59432
  401.592    7.179    8.385  393.206  160.209   49.332  0.92440  0.94512  0.63649  0.86796  1.00000  0.86796  0.93894  0.55245
  361.433    6.461    8.061  353.372  139.513   44.741  0.91600  0.92988  0.60704  0.83688  1.00000  0.83688  0.91362  0.50802
  325.289    5.815    7.748  317.541  121.395   40.633  0.90705  0.91133  0.57602  0.80135  1.00000  0.80135  0.88347  0.46159
  292.760    5.233    7.448  285.312  105.538   36.963  0.89755  0.88914  0.54351  0.76173  0.99999  0.76172  0.84866  0.41400
  263.484    4.710    7.160  256.325   91.636   33.712  0.88752  0.86306  0.50965  0.71866  0.99985  0.71854  0.80961  0.36620
  237.136    4.239    6.882  230.254   79.457   30.823  0.87696  0.83302  0.47468  0.67301  0.99871  0.67214  0.76645  0.31905
  213.422    3.815    6.616  206.807   69.087   28.256  0.86587  0.79908  0.43892  0.62583  0.99233  0.62103  0.71723  0.27258
  192.080    3.434    6.359  185.721   60.090   25.984  0.85429  0.76150  0.40278  0.57821  0.96567  0.55836  0.65360  0.22490
  172.872    3.090    6.113  166.759   52.199   23.979  0.84221  0.72072  0.36671  0.53114  0.88453  0.46981  0.55783  0.17229
  155.585    2.781    5.876  149.709   45.282   22.217  0.82967  0.67728  0.33118  0.48546  0.71222  0.34575  0.41673  0.11451
  140.026    2.503    5.649  134.378   39.247   20.676  0.81668  0.63185  0.29664  0.44173  0.46581  0.20576  0.25195  0.06104
  126.024    2.253    5.430  120.594   33.995   19.334  0.80327  0.58515  0.26351  0.40031  0.23229  0.09299  0.11576  0.02450
  113.421    2.028    5.219  108.202   29.401   18.171  0.78946  0.53789  0.23213  0.36134  0.08479  0.03064  0.03881  0.00711
  102.079    1.825    5.017   97.062   25.383   17.170  0.77528  0.49075  0.20278  0.32482  0.02250  0.00731  0.00943  0.00148
   91.871    1.642    4.823   87.048   21.875   16.312  0.76076  0.44437  0.17565  0.29068  0.00444  0.00129  0.00170  0.00023
   82.684    1.478    4.636   78.048   18.814   15.582  0.74592  0.40960  0.15475  0.26528  0.00068  0.00018  0.00024  0.00003
   74.416    1.330    4.456   69.959   16.146   14.963  0.73080  0.37952  0.13694  0.24395  0.00009  0.00002  0.00003  0.00000
   66.974    1.197    4.284   62.690   13.823   14.442  0.71541  0.34866  0.12005  0.22291  0.00001  0.00000  0.00000  0.00000
   60.277    1.078    4.118   56.159   11.803   14.006  0.69980  0.31728  0.10416  0.20203  0.00000  0.00000  0.00000  0.00000
   54.249    0.970    3.958   50.291   10.011   14.174  0.68399  0.28579  0.08939  0.18137  0.00000  0.00000  0.00000  0.00000
   48.824    0.873    3.805   45.019    8.458   13.770  0.66801  0.25469  0.07584  0.16118  0.00000  0.00000  0.00000  0.00000
   43.942    0.786    3.658   40.284    7.116   13.436  0.65188  0.22460  0.06362  0.14177  0.00000  0.00000  0.00000  0.00000
   39.548    0.707    3.516   36.032    6.032   13.161  0.63565  0.19606  0.05279  0.12347  0.00000  0.00000  0.00000  0.00000
   35.593    0.636    3.380   32.213    5.116   12.936  0.61933  0.16954  0.04336  0.10655  0.00000  0.00000  0.00000  0.00000
   32.034    0.573    3.249   28.785    4.324   12.753  0.60295  0.14537  0.03528  0.09119  0.00000  0.00000  0.00000  0.00000
   28.830    0.515    3.123   25.707    3.639   12.604  0.58653  0.12226  0.02814  0.07657  0.00000  0.00000  0.00000  0.00000
