 SWICS EFFICIENCIES FOR AR

 incident ion: Z=18, M= 39.980 amu
 carbon foil thickness= 2.5 microg/squarecm
 detector threshold= 40.0 keV, electronic FWHM= 12.0 keV
 electrons needed to trigger MCPs: TH1=1.10, TH2=1.10
 constants for sec. electrons: CONST1=0.860, CONST2=0.277

     ETOT    EPERM    EFOIL    ETOTF    EMEAS    FWHMT    PROB1   PROBSE    PROB2   PROBST    PROBT    PROB3    P3/P1    P2*P3
    [keV]  [keV/u]    [keV]    [keV]    [keV]    [keV]

 3998.000  100.000   38.053 3959.947 3375.322  199.582  1.00000  0.99996  0.99974  0.99988  1.00000  0.99988  0.99988  0.99961
 3598.200   90.000   35.953 3562.247 3002.507  193.346  0.99999  0.99994  0.99952  0.99983  1.00000  0.99983  0.99984  0.99935
 3238.380   81.000   33.889 3204.491 2670.534  187.305  0.99999  0.99992  0.99914  0.99977  1.00000  0.99977  0.99979  0.99891
 2914.542   72.900   31.886 2882.656 2373.482  180.038  0.99998  0.99989  0.99852  0.99969  1.00000  0.99969  0.99972  0.99821
 2623.088   65.610   29.963 2593.125 2109.119  173.030  0.99995  0.99986  0.99755  0.99958  1.00000  0.99958  0.99963  0.99714
 2360.779   59.049   28.133 2332.646 1872.436  166.296  0.99991  0.99980  0.99611  0.99943  1.00000  0.99943  0.99952  0.99554
 2124.701   53.144   26.406 2098.295 1658.337  159.826  0.99984  0.99973  0.99405  0.99923  1.00000  0.99923  0.99939  0.99328
 1912.231   47.830   24.786 1887.445 1468.320  153.609  0.99972  0.99964  0.99121  0.99895  1.00000  0.99895  0.99923  0.99018
 1721.008   43.047   23.274 1697.734 1299.702  147.635  0.99954  0.99951  0.98747  0.99858  1.00000  0.99858  0.99905  0.98607
 1548.907   38.742   21.871 1527.036 1149.248  140.928  0.99925  0.99933  0.98271  0.99808  1.00000  0.99808  0.99883  0.98082
 1394.016   34.868   20.573 1373.443 1014.869  133.343  0.99884  0.99909  0.97683  0.99740  1.00000  0.99740  0.99856  0.97429
 1254.615   31.381   19.375 1235.239  895.843  126.169  0.99826  0.99877  0.96977  0.99649  1.00000  0.99649  0.99822  0.96637
 1129.153   28.243   18.274 1110.879  790.443  119.384  0.99748  0.99834  0.96151  0.99526  1.00000  0.99526  0.99777  0.95695
 1016.238   25.419   17.263  998.975  697.118  112.967  0.99646  0.99775  0.95203  0.99362  1.00000  0.99362  0.99715  0.94595
  914.614   22.877   16.291  898.323  612.072  106.901  0.99507  0.99697  0.93872  0.99142  1.00000  0.99142  0.99633  0.93067
  823.153   20.589   15.400  807.752  537.038  101.166  0.99335  0.99591  0.92358  0.98850  1.00000  0.98850  0.99512  0.91297
  740.837   18.530   14.590  726.247  470.858   95.019  0.99128  0.99450  0.90667  0.98465  1.00000  0.98465  0.99331  0.89275
  666.754   16.677   13.853  652.901  412.515   89.180  0.98883  0.99262  0.88805  0.97958  1.00000  0.97958  0.99065  0.86991
  600.078   15.009   13.180  586.898  361.104   83.455  0.98600  0.99013  0.86779  0.97297  1.00000  0.97297  0.98679  0.84433
  540.070   13.509   12.563  527.507  315.820   77.186  0.98286  0.98685  0.84594  0.96444  1.00000  0.96444  0.98125  0.81586
  486.063   12.158   12.070  473.994  275.907   71.394  0.97979  0.98255  0.82251  0.95352  1.00000  0.95352  0.97319  0.78428
  437.457   10.942   11.602  425.855  240.802   66.054  0.97631  0.97696  0.79752  0.93973  1.00000  0.93973  0.96253  0.74946
  393.711    9.848   11.153  382.559  209.859   60.627  0.97241  0.96976  0.77097  0.92257  1.00000  0.92257  0.94874  0.71128
  354.340    8.863   10.721  343.620  182.573   55.020  0.96806  0.96059  0.74282  0.90155  1.00000  0.90155  0.93130  0.66969
  318.906    7.977   10.305  308.601  158.657   49.973  0.96323  0.94905  0.71302  0.87629  1.00000  0.87629  0.90974  0.62482
  287.015    7.179    9.906  277.109  137.725   45.168  0.95791  0.93472  0.68154  0.84655  1.00000  0.84655  0.88375  0.57696
  258.314    6.461    9.522  248.792  119.388   40.797  0.95206  0.91719  0.64837  0.81232  1.00000  0.81232  0.85322  0.52668
  232.483    5.815    9.153  223.329  103.253   36.914  0.94568  0.89611  0.61356  0.77386  0.99997  0.77384  0.81829  0.47480
  209.234    5.233    8.799  200.436   89.110   33.472  0.93875  0.87120  0.57723  0.73173  0.99972  0.73153  0.77926  0.42226
  188.311    4.710    8.458  179.853   76.760   30.429  0.93125  0.84234  0.53959  0.68674  0.99778  0.68522  0.73580  0.36974
  169.480    4.239    8.130  161.350   65.988   27.747  0.92319  0.80954  0.50096  0.63991  0.98629  0.63114  0.68365  0.31617
  152.532    3.815    7.815  144.717   56.807   25.393  0.91454  0.77300  0.46172  0.59231  0.94046  0.55705  0.60910  0.25720
  137.279    3.434    7.512  129.766   48.818   23.334  0.90532  0.73311  0.42233  0.54499  0.81323  0.44320  0.48955  0.18718
  123.551    3.090    7.221  116.329   41.857   21.543  0.89552  0.69040  0.38330  0.49882  0.58042  0.28953  0.32331  0.11098
  111.196    2.781    6.942  104.254   35.799   19.992  0.88514  0.64549  0.34511  0.45447  0.31038  0.14106  0.15936  0.04868
  100.076    2.503    6.673   93.403   30.647   18.657  0.87418  0.59910  0.30823  0.41235  0.11889  0.04903  0.05608  0.01511
   90.068    2.253    6.414   83.654   26.228   17.516  0.86267  0.55193  0.26245  0.37265  0.03205  0.01194  0.01385  0.00313
   81.062    2.028    6.166   74.896   22.387   16.547  0.85061  0.50469  0.23004  0.33541  0.00609  0.00204  0.00240  0.00047
   72.955    1.825    5.927   67.029   19.051   15.728  0.83802  0.45802  0.19992  0.30057  0.00086  0.00026  0.00031  0.00005
   65.660    1.642    5.697   59.963   16.160   15.042  0.82491  0.41253  0.17225  0.26805  0.00009  0.00003  0.00003  0.00000
   59.094    1.478    5.477   53.617   13.815   14.471  0.81130  0.38376  0.15313  0.24723  0.00001  0.00000  0.00000  0.00000
   53.185    1.330    5.264   47.920   11.778   13.999  0.79721  0.35406  0.13488  0.22671  0.00000  0.00000  0.00000  0.00000
   47.866    1.197    5.061   42.806   10.010   13.610  0.78267  0.32366  0.11759  0.20633  0.00000  0.00000  0.00000  0.00000
   43.079    1.078    4.864   38.215    8.496   13.299  0.76769  0.29290  0.10140  0.18607  0.00000  0.00000  0.00000  0.00000
   38.772    0.970    4.676   34.096    7.209   13.044  0.75231  0.26227  0.08642  0.16611  0.00000  0.00000  0.00000  0.00000
   34.894    0.873    4.495   30.400    6.094   12.837  0.73655  0.23232  0.07280  0.14676  0.00000  0.00000  0.00000  0.00000
   31.405    0.786    4.321   27.084    5.132   12.669  0.72044  0.20366  0.06063  0.12835  0.00000  0.00000  0.00000  0.00000
   28.264    0.707    4.153   24.111    4.304   12.533  0.70399  0.17680  0.04995  0.11118  0.00000  0.00000  0.00000  0.00000
   25.438    0.636    3.992   21.446    3.592   12.424  0.68724  0.15211  0.04074  0.09547  0.00000  0.00000  0.00000  0.00000
   22.894    0.573    3.838   19.056    2.979   12.336  0.67021  0.12895  0.03271  0.08080  0.00000  0.00000  0.00000  0.00000
   20.605    0.515    3.689   16.916    2.454   12.265  0.65293  0.10763  0.02583  0.06734  0.00000  0.00000  0.00000  0.00000
