 SWICS EFFICIENCIES FOR N_

 incident ion: Z= 7, M= 14.003 amu
 carbon foil thickness= 2.5 microg/squarecm
 detector threshold= 40.0 keV, electronic FWHM= 12.0 keV
 electrons needed to trigger MCPs: TH1=1.10, TH2=1.10
 constants for sec. electrons: CONST1=0.525, CONST2=0.500

     ETOT    EPERM    EFOIL    ETOTF    EMEAS    FWHMT    PROB1   PROBSE    PROB2   PROBST    PROBT    PROB3    P3/P1    P2*P3
    [keV]  [keV/u]    [keV]    [keV]    [keV]    [keV]

 1400.300  100.000   18.332 1381.968 1262.013   40.327  0.97334  0.99986  0.99916  0.99959  1.00000  0.99959  1.02696  0.99875
 1260.270   90.000   17.585 1242.685 1128.312   39.944  0.96886  0.99981  0.99870  0.99944  1.00000  0.99944  1.03156  0.99814
 1134.243   81.000   16.821 1117.422 1008.679   39.559  0.96352  0.99974  0.99802  0.99924  1.00000  0.99924  1.03707  0.99726
 1020.819   72.900   16.053 1004.766  899.973   38.924  0.95724  0.99964  0.99704  0.99896  1.00000  0.99896  1.04358  0.99600
  918.737   65.610   15.293  903.444  802.911   38.300  0.94999  0.99951  0.99566  0.99859  1.00000  0.99859  1.05116  0.99426
  826.863   59.049   14.551  812.313  715.831   37.689  0.94174  0.99933  0.99379  0.99809  1.00000  0.99809  1.05983  0.99189
  744.177   53.144   13.832  730.344  637.316   37.089  0.93250  0.99910  0.99131  0.99741  1.00000  0.99741  1.06961  0.98874
  669.759   47.830   13.144  656.615  567.327   36.501  0.92230  0.99878  0.98811  0.99650  1.00000  0.99650  1.08045  0.98465
  602.783   43.047   12.489  590.294  504.941   35.924  0.91119  0.99834  0.98408  0.99527  1.00000  0.99527  1.09227  0.97942
  542.505   38.742   11.870  530.635  448.836   35.144  0.89926  0.99775  0.97911  0.99362  1.00000  0.99362  1.10493  0.97286
  488.254   34.868   11.287  476.967  398.441   34.185  0.88660  0.99696  0.97313  0.99141  1.00000  0.99141  1.11822  0.96477
  439.429   31.381   10.741  428.688  353.612   33.258  0.87333  0.99590  0.96604  0.98848  1.00000  0.98848  1.13186  0.95492
  395.486   28.243   10.231  385.255  313.740   32.363  0.85956  0.99448  0.95778  0.98460  1.00000  0.98460  1.14548  0.94303
  355.937   25.419    9.756  346.182  278.188   31.498  0.84530  0.99259  0.94801  0.97950  1.00000  0.97950  1.15876  0.92858
  320.344   22.877    9.288  311.055  245.898   30.664  0.82989  0.99008  0.93452  0.97285  1.00000  0.97285  1.17227  0.90915
  288.309   20.589    8.854  279.456  217.262   29.853  0.81439  0.98677  0.91900  0.96424  1.00000  0.96424  1.18400  0.88614
  259.478   18.530    8.454  251.025  191.870   28.803  0.79890  0.98243  0.90135  0.95323  1.00000  0.95323  1.19317  0.85920
  233.531   16.677    8.085  225.445  169.361   27.804  0.78349  0.97679  0.88147  0.93932  1.00000  0.93932  1.19889  0.82797
  210.177   15.009    7.744  202.433  149.227   26.813  0.76820  0.96951  0.85924  0.92199  1.00000  0.92199  1.20019  0.79221
  189.160   13.509    7.429  181.731  131.088   25.803  0.75351  0.96024  0.83455  0.90077  1.00000  0.90077  1.19543  0.75174
  170.244   12.158    7.146  163.097  115.057   24.848  0.73868  0.94857  0.80729  0.87526  1.00000  0.87526  1.18490  0.70659
  153.219   10.942    6.869  146.350  100.915   23.947  0.72359  0.93407  0.77739  0.84524  1.00000  0.84524  1.16812  0.65708
  137.897    9.848    6.603  131.294   88.342   23.031  0.70828  0.91633  0.74481  0.81070  1.00000  0.81070  1.14461  0.60382
  124.108    8.863    6.348  117.760   77.205   22.130  0.69277  0.89501  0.70958  0.77193  0.99996  0.77190  1.11422  0.54772
  111.697    7.977    6.102  105.595   67.297   21.291  0.67710  0.86982  0.67183  0.72948  0.99873  0.72856  1.07601  0.48947
  100.527    7.179    5.865   94.662   58.510   20.375  0.66128  0.84064  0.63182  0.68422  0.98379  0.67313  1.01791  0.42530
   90.474    6.461    5.638   84.836   50.803   19.529  0.64536  0.80751  0.58992  0.63715  0.90364  0.57576  0.89215  0.33965
   81.427    5.815    5.420   76.007   43.948   18.754  0.62936  0.77063  0.54661  0.58938  0.68993  0.40663  0.64611  0.22227
   73.284    5.233    5.210   68.075   37.944   17.956  0.61330  0.73041  0.50248  0.54194  0.39371  0.21337  0.34790  0.10721
   65.956    4.710    5.008   60.948   32.699   17.008  0.59721  0.68738  0.45817  0.49572  0.15603  0.07734  0.12951  0.03544
   59.360    4.239    4.814   54.546   28.122   16.192  0.58112  0.64219  0.41431  0.45136  0.04204  0.01897  0.03265  0.00786
   53.424    3.815    4.627   48.797   24.133   15.494  0.56505  0.59555  0.37152  0.40926  0.00794  0.00325  0.00575  0.00121
   48.082    3.434    4.448   43.634   20.660   14.900  0.54902  0.54820  0.33034  0.36962  0.00112  0.00041  0.00075  0.00014
   43.274    3.090    4.276   38.998   17.639   14.398  0.53306  0.50081  0.29124  0.33245  0.00013  0.00004  0.00008  0.00001
   38.946    2.781    4.110   34.836   15.017   13.976  0.51718  0.45406  0.25457  0.29769  0.00001  0.00000  0.00001  0.00000
   35.052    2.503    3.951   31.101   12.772   13.622  0.50141  0.40852  0.22061  0.26523  0.00000  0.00000  0.00000  0.00000
   31.546    2.253    3.798   27.749   10.826   13.327  0.48575  0.36471  0.18210  0.23501  0.00000  0.00000  0.00000  0.00000
   28.392    2.028    3.651   24.741    9.142   13.083  0.47023  0.32307  0.15456  0.20697  0.00000  0.00000  0.00000  0.00000
   25.553    1.825    3.509   22.043    7.687   12.881  0.45486  0.28397  0.13000  0.18108  0.00000  0.00000  0.00000  0.00000
   22.997    1.642    3.373   19.624    6.461   12.714  0.43965  0.25467  0.11142  0.16178  0.00000  0.00000  0.00000  0.00000
   20.698    1.478    3.243   17.455    5.421   12.578  0.42461  0.23063  0.09630  0.14605  0.00000  0.00000  0.00000  0.00000
   18.628    1.330    3.117   15.511    4.526   12.466  0.40976  0.20653  0.08221  0.13045  0.00000  0.00000  0.00000  0.00000
   16.765    1.197    2.996   13.769    3.761   12.176  0.39510  0.18292  0.06931  0.11526  0.00000  0.00000  0.00000  0.00000
   15.089    1.078    2.880   12.208    3.127   12.139  0.38063  0.16029  0.05774  0.10078  0.00000  0.00000  0.00000  0.00000
   13.580    0.970    2.764   10.815    2.585   12.109  0.36641  0.13908  0.04757  0.08728  0.00000  0.00000  0.00000  0.00000
   12.222    0.873    2.644    9.578    2.127   12.086  0.35251  0.11958  0.03880  0.07492  0.00000  0.00000  0.00000  0.00000
   11.000    0.786    2.529    8.470    1.743   12.067  0.33883  0.10201  0.03136  0.06382  0.00000  0.00000  0.00000  0.00000
    9.900    0.707    2.421    7.479    1.416   12.052  0.32536  0.08644  0.02513  0.05401  0.00000  0.00000  0.00000  0.00000
    8.910    0.636    2.317    6.592    1.138   12.041  0.31211  0.07221  0.01983  0.04507  0.00000  0.00000  0.00000  0.00000
    8.019    0.573    2.219    5.800    0.902   12.031  0.29908  0.05956  0.01542  0.03714  0.00000  0.00000  0.00000  0.00000
    7.217    0.515    2.125    5.092    0.769   12.024  0.28625  0.04900  0.01195  0.03054  0.00000  0.00000  0.00000  0.00000
