 SWICS EFFICIENCIES FOR S_

 incident ion: Z=16, M= 31.970 amu
 carbon foil thickness= 2.5 microg/squarecm
 detector threshold= 40.0 keV, electronic FWHM= 12.0 keV
 electrons needed to trigger MCPs: TH1=1.10, TH2=1.10
 constants for sec. electrons: CONST1=0.800, CONST2=0.282

     ETOT    EPERM    EFOIL    ETOTF    EMEAS    FWHMT    PROB1   PROBSE    PROB2   PROBST    PROBT    PROB3    P3/P1    P2*P3
    [keV]  [keV/u]    [keV]    [keV]    [keV]    [keV]

 3197.000  100.000   34.059 3162.941 2728.124  132.883  0.99997  0.99992  0.99946  0.99976  1.00000  0.99976  0.99979  0.99922
 2877.300   90.000   32.109 2845.191 2430.220  129.348  0.99995  0.99989  0.99905  0.99968  1.00000  0.99968  0.99973  0.99873
 2589.570   81.000   30.195 2559.375 2164.652  125.908  0.99991  0.99985  0.99837  0.99957  1.00000  0.99957  0.99966  0.99794
 2330.613   72.900   28.337 2302.276 1925.996  121.616  0.99984  0.99980  0.99731  0.99942  1.00000  0.99942  0.99958  0.99673
 2097.552   65.610   26.555 2070.997 1713.428  117.467  0.99971  0.99973  0.99570  0.99921  1.00000  0.99921  0.99950  0.99492
 1887.797   59.049   24.861 1862.935 1523.070  113.462  0.99951  0.99963  0.99339  0.99894  1.00000  0.99894  0.99943  0.99233
 1699.017   53.144   23.264 1675.753 1351.177  109.596  0.99919  0.99950  0.99018  0.99857  1.00000  0.99857  0.99938  0.98877
 1529.115   47.830   21.768 1507.347 1198.422  105.864  0.99870  0.99933  0.98591  0.99808  1.00000  0.99808  0.99937  0.98402
 1376.204   43.047   20.375 1355.829 1062.691  102.261  0.99799  0.99910  0.98043  0.99741  1.00000  0.99741  0.99942  0.97790
 1238.583   38.742   19.084 1219.500  941.297   98.115  0.99699  0.99879  0.97362  0.99653  1.00000  0.99653  0.99954  0.97024
 1114.725   34.868   17.892 1096.833  832.640   93.356  0.99562  0.99837  0.96540  0.99534  1.00000  0.99534  0.99972  0.96091
 1003.252   31.381   16.795  986.457  736.276   88.833  0.99383  0.99781  0.95576  0.99377  1.00000  0.99377  0.99994  0.94980
  902.927   28.243   15.788  887.139  650.833   84.535  0.99155  0.99706  0.94468  0.99168  1.00000  0.99168  1.00014  0.93682
  812.634   25.419   14.867  797.768  575.034   80.451  0.98873  0.99606  0.93216  0.98892  1.00000  0.98892  1.00020  0.92183
  731.371   22.877   13.986  717.385  505.195   76.572  0.98513  0.99474  0.91510  0.98530  1.00000  0.98530  1.00017  0.90164
  658.234   20.589   13.180  645.053  443.550   72.886  0.98091  0.99298  0.89607  0.98055  1.00000  0.98055  0.99964  0.87865
  592.410   18.530   12.451  579.960  389.155   68.894  0.97605  0.99067  0.87519  0.97440  1.00000  0.97440  0.99831  0.85279
  533.169   16.677   11.788  521.381  341.178   65.088  0.97058  0.98764  0.85258  0.96648  1.00000  0.96648  0.99577  0.82400
  479.852   15.009   11.185  468.667  298.786   61.339  0.96454  0.98368  0.82831  0.95638  1.00000  0.95638  0.99154  0.79218
  431.867   13.509   10.636  421.232  261.128   57.260  0.95810  0.97856  0.80248  0.94365  1.00000  0.94365  0.98491  0.75726
  388.680   12.158   10.212  378.468  227.933   53.463  0.95232  0.97199  0.77509  0.92782  1.00000  0.92782  0.97427  0.71914
  349.812   10.942    9.816  339.996  198.749   49.939  0.94601  0.96364  0.74620  0.90843  1.00000  0.90843  0.96027  0.67787
  314.831    9.848    9.436  305.395  173.043   46.326  0.93916  0.95314  0.71583  0.88508  1.00000  0.88508  0.94242  0.63357
  283.348    8.863    9.071  274.277  150.398   42.585  0.93176  0.94010  0.68399  0.85751  1.00000  0.85751  0.92031  0.58652
  255.013    7.977    8.719  246.294  130.539   39.190  0.92380  0.92414  0.65069  0.82562  1.00000  0.82562  0.89372  0.53722
  229.512    7.179    8.381  221.130  113.132   35.801  0.91528  0.90490  0.61601  0.78956  1.00000  0.78956  0.86264  0.48637
  206.561    6.461    8.057  198.504   97.898   32.675  0.90620  0.88209  0.58004  0.74975  0.99998  0.74974  0.82734  0.43487
  185.905    5.815    7.745  178.160   84.533   29.894  0.89656  0.85554  0.54296  0.70685  0.99977  0.70669  0.78823  0.38371
  167.314    5.233    7.445  159.870   72.843   27.426  0.88636  0.82520  0.50505  0.66175  0.99760  0.66016  0.74480  0.33341
  150.583    4.710    7.156  143.427   62.644   25.154  0.87560  0.79117  0.46662  0.61543  0.98299  0.60496  0.69091  0.28229
  135.524    4.239    6.879  128.646   53.755   23.163  0.86432  0.75375  0.42808  0.56891  0.91899  0.52283  0.60490  0.22381
  121.972    3.815    6.612  115.360   46.199   21.427  0.85250  0.71335  0.38985  0.52309  0.75214  0.39344  0.46152  0.15338
  109.775    3.434    6.356  103.419   39.625   19.920  0.84018  0.67052  0.35239  0.47871  0.48232  0.23089  0.27481  0.08136
   98.797    3.090    6.110   92.687   33.903   18.621  0.82736  0.62589  0.31611  0.43626  0.22036  0.09614  0.11620  0.03039
   88.918    2.781    5.873   83.044   28.930   17.507  0.81408  0.58014  0.28139  0.39605  0.06824  0.02702  0.03320  0.00760
   80.026    2.503    5.646   74.380   24.744   16.557  0.80034  0.53392  0.24856  0.35818  0.01501  0.00538  0.00672  0.00134
   72.023    2.253    5.427   66.596   21.169   15.752  0.78619  0.48787  0.20896  0.32265  0.00244  0.00079  0.00100  0.00016
   64.821    2.028    5.217   59.604   18.061   15.076  0.77163  0.44257  0.18131  0.28938  0.00031  0.00009  0.00011  0.00002
   58.339    1.825    5.015   53.324   15.363   14.510  0.75670  0.39856  0.15602  0.25829  0.00003  0.00001  0.00001  0.00000
   52.505    1.642    4.820   47.684   13.032   14.040  0.74142  0.35706  0.13343  0.22978  0.00000  0.00000  0.00000  0.00000
   47.254    1.478    4.634   42.621   11.136   13.652  0.72583  0.33055  0.11780  0.21148  0.00000  0.00000  0.00000  0.00000
   42.529    1.330    4.454   38.075    9.489   13.332  0.70995  0.30328  0.10298  0.19320  0.00000  0.00000  0.00000  0.00000
   38.276    1.197    4.282   33.994    8.060   13.071  0.69380  0.27554  0.08907  0.17493  0.00000  0.00000  0.00000  0.00000
   34.448    1.078    4.116   30.333    6.842   12.834  0.67742  0.24777  0.07616  0.15685  0.00000  0.00000  0.00000  0.00000
   31.004    0.970    3.956   27.047    5.809   12.667  0.66083  0.22048  0.06440  0.13922  0.00000  0.00000  0.00000  0.00000
   27.903    0.873    3.803   24.100    4.914   12.533  0.64407  0.19421  0.05384  0.12235  0.00000  0.00000  0.00000  0.00000
   25.113    0.786    3.656   21.457    4.139   12.424  0.62715  0.16945  0.04455  0.10653  0.00000  0.00000  0.00000  0.00000
   22.602    0.707    3.514   19.088    3.469   12.337  0.61010  0.14656  0.03650  0.09197  0.00000  0.00000  0.00000  0.00000
   20.341    0.636    3.378   16.964    2.892   12.267  0.59295  0.12577  0.02965  0.07879  0.00000  0.00000  0.00000  0.00000
   18.307    0.573    3.247   15.060    2.396   12.211  0.57572  0.10630  0.02369  0.06650  0.00000  0.00000  0.00000  0.00000
   16.477    0.515    3.121   13.355    1.972   12.166  0.55843  0.08869  0.01867  0.05542  0.00000  0.00000  0.00000  0.00000
